{
    "resourceType": "Bundle",
    "type": "transaction",
    "entry": [
        {
            "resource": {
                "resourceType": "Patient",
                "id": "bb5ae35f-d7e7-4a24-81e6-7bf62811d52d",
                "identifier": [
                    {
                        "use": "official",
                        "type": {
                            "coding": [
                                {
                                    "system": "http://terminology.hl7.org/CodeSystem/v2-0203",
                                    "code": "PN",
                                    "display": "Person number"
                                }
                            ]
                        },
                        "system": "http://national-person-identifier-system.example.com",
                        "value": "236498721639487"
                    }
                ],
                "active": true,
                "name": [
                    {
                        "use": "official",
                        "family": "Silva Santos",
                        "_family": {
                            "extension": [
                                {
                                    "id": "humanname-fathers-family",
                                    "url": "http://hl7.org/fhir/StructureDefinition/humanname-fathers-family",
                                    "valueString": "Silva"
                                },
                                {
                                    "id": "humanname-mothers-family",
                                    "url": "http://hl7.org/fhir/StructureDefinition/humanname-mothers-family",
                                    "valueString": "Santos"
                                }
                            ]
                        },
                        "given": [
                            "María",
                            "Clara"
                        ]
                    }
                ],
                "telecom": [
                    {
                        "system": "phone",
                        "value": "+55(11)333-4444",
                        "use": "home"
                    },
                    {
                        "system": "phone",
                        "value": "+55(9)111-2222",
                        "use": "mobile"
                    },
                    {
                        "system": "email",
                        "value": "maria.silva@example.com"
                    }
                ],
                "gender": "female",
                "birthDate": "1982-11-19"
            },
            "request": {
                "method": "PUT",
                "url": "Patient/bb5ae35f-d7e7-4a24-81e6-7bf62811d52d"
            }
        },
        {
            "resource": {
                "resourceType": "BodyStructure",
                "id": "88fdd0c6-8fde-4031-b0c1-37ea701bd62d",
                "active": true,
                "morphology": 
                {
                    "coding": 
                    [
                        {
                            "system": "http://snomed.info/sct",
                            "code": "8145008",
                            "display": "Mixed tumor, malignant (morphologic abnormality)"
                        }
                    ],
                    "text": "Tumor misto, maligno (anormalidade morfológica)"
                },
                "location": 
                {
                    "coding": 
                    [
                        {
                            "system": "http://snomed.info/sct",
                            "code": "80248007",
                            "display": "Left breast structure (body structure)"
                        }
                    ],
                    "text": "Estrutura da mama esquerda (estrutura do corpo)"
                },
                "description": "Neoplasia estromal Y/O mixta compleja, primaria",
                "patient": 
                {
                    "reference": "Patient/bb5ae35f-d7e7-4a24-81e6-7bf62811d52d"
                }
            },
            "request": {
                "method": "PUT",
                "url": "BodyStructure/88fdd0c6-8fde-4031-b0c1-37ea701bd62d"
            }
        },
        {
            "resource": {
                "resourceType": "Specimen",
                "id": "585d5315-8034-47f8-becd-1485983d7a5b",
                "identifier": 
                [
                    {
                        "use": "usual",
                        "value": "TMR23480-FH"
                    }
                ],
                "type": 
                {
                    "coding": 
                    [
                        {
                            "system": "http://terminology.hl7.org/CodeSystem/v2-0487",
                            "code": "TUMOR",
                            "display": "Tumor"
                        }
                    ]
                },
                "subject": 
                {
                    "reference": "Patient/bb5ae35f-d7e7-4a24-81e6-7bf62811d52d"
                },
                "receivedTime": "2022-03-24T14:23:38-03:00",   
                "collection": 
                { 
                    "collectedDateTime": "2022-03-24T09:11:20-03:00",
                    "bodySite": 
                    {
                        "coding": 
                        [
                            {
                                "system": "http://snomed.info/sct",
                                "code": "80248007",
                                "display": "Left breast structure (body structure)"
                            }
                        ],
                        "text": "Estrutura da mama esquerda (estrutura do corpo)"
                    }
                }
            },
            "request": {
                "method": "PUT",
                "url": "Specimen/585d5315-8034-47f8-becd-1485983d7a5b"
            }
        },
        {
            "resource": {
                "resourceType": "Observation",
                "id": "657ec3de-4ff5-426e-8dfc-bd48fbbd3343",
                "status": "registered",
                "category": [
                    {
                        "coding": [
                            {
                                "system": "http://terminology.hl7.org/CodeSystem/observation-category",
                                "code": "laboratory",
                                "display": "Laboratory"
                            }
                        ]
                    }
                ],
                "code": {
                    "coding": [
                        {
                            "system": "http://loinc.org",
                            "code": "85337-4",
                            "display": "Estrogen receptor Ag [Presence] in Breast cancer specimen by Immune stain"
                        }
                    ],
                    "text": "Antígeno do receptor de estrogênio em amostra de câncer de mama por coloração imuno-histoquímica"
                },
                "subject": 
                {
                    "reference": "Patient/bb5ae35f-d7e7-4a24-81e6-7bf62811d52d"
                },
                "performer": [{
                    "reference": "Practitioner/dr-gregorio-casas"
                }],
                "effectiveDateTime": "2022-03-16T10:12:22-03:00",
                "valueCodeableConcept": {
                    "coding": [
                        {
                            "system": "http://snomed.info/sct",
                            "code": "10828004",
                            "display": "Positive (qualifier value)"
                        }
                    ],
                    "text": "Positivo"
                },
                "specimen": {
                    "reference": "Specimen/585d5315-8034-47f8-becd-1485983d7a5b"
                }
            },
            "request": {
                "method": "PUT",
                "url": "Observation/657ec3de-4ff5-426e-8dfc-bd48fbbd3343"
            }
        },
        {
            "resource": {
                "resourceType": "Observation",
                "id": "6f2bd4f1-b3ad-4d32-9996-00d96f680574",
                "status": "registered",
                "category": [
                    {
                        "coding": [
                            {
                                "system": "http://terminology.hl7.org/CodeSystem/observation-category",
                                "code": "laboratory",
                                "display": "Laboratory"
                            }
                        ]
                    }
                ],
                "code": {
                    "coding": [
                        {
                            "system": "http://snomed.info/sct",
                            "code": "263605001",
                            "display": "Length dimension of neoplasm (observable entity)"
                        }
                    ],
                    "text": "dimensão do comprimento da neoplasia"
                },
                "subject": 
                {
                    "reference": "Patient/bb5ae35f-d7e7-4a24-81e6-7bf62811d52d"
                },
                "performer": [{
                    "reference": "Practitioner/dr-gregorio-casas"
                }],
                "method": {
                    "coding": [
                        {
                            "system": "http://loinc.org",
                            "code": "24419-4",
                            "display": "Macroscopic observation"
                        }
                    ],
                    "text": "observação macroscópica"
                },
                "specimen": {
                    "reference": "Specimen/585d5315-8034-47f8-becd-1485983d7a5b"
                },
                "component": [
                    {
                        "code": {
                            "coding": [
                                {
                                    "system": "http://snomed.info/sct",
                                    "code": "371479009",
                                    "display": "Tumor size, largest dimension (observable entity)"
                                }
                            ],
                            "text": "Tamanho do tumor na maior dimensão"
                        },
                        "valueQuantity": {
                            "value": 2.5,
                            "unit": "cm",
                            "system": "http://unitsofmeasure.org",
                            "code": "cm"
                        }
                    }
                ]
            },
            "request": {
                "method": "PUT",
                "url": "Observation/6f2bd4f1-b3ad-4d32-9996-00d96f680574"
            }
        },
        {
            "resource": {
                "resourceType": "Procedure",
                "id": "ab34d012-aaec-48a5-a973-1656372c3365",
                "status": "completed",
                "category": {
                    "coding": [
                        {
                            "system": "http://snomed.info/sct",
                            "code": "387713003",
                            "display": "Surgical procedure (procedure)"
                        }
                    ],
                    "text": "cirúrgico"
                },
                "code": {
                    "coding": [
                        {
                            "system": "http://snomed.info/sct",
                            "code": "64368001",
                            "display": "Excision of part of breast (procedure)"
                        }
                    ],
                    "text": "mastectomia parcial "
                },
                "subject": {
                    "reference": "Patient/bb5ae35f-d7e7-4a24-81e6-7bf62811d52d"
                },
                "performedDateTime": "2022-04-11T08:41:22-03:00",
                "performer": [
                    {
                        "actor": {
                            "reference": "Practitioner/dr-gregorio-casas"
                        }
                    }
                ],
                "bodySite": [
                    {
                        "coding": [
                            {
                                "system": "http://snomed.info/sct",
                                "code": "80248007",
                                "display": "Left breast structure (body structure)"
                            }
                        ],
                        "text": "estrutura da mama esquerda"
                    }
                ]
            },
            "request": {
                "method": "PUT",
                "url": "Procedure/ab34d012-aaec-48a5-a973-1656372c3365"
            }
        },
        {
            "resource": {
                "resourceType": "MedicationRequest",
                "id": "e37a0d57-ae75-45c8-b042-fb42b5e6d733",
                "status": "active",
                "medicationCodeableConcept": {
                    "coding": [
                        {
                            "system": "http://snomed.info/sct",
                            "code": "386910003",
                            "display": "Anastrozole (substance)"
                        }
                    ],
                    "text": "Anastrozol"
                },
                "subject": {
                    "reference": "Patient/bb5ae35f-d7e7-4a24-81e6-7bf62811d52d"
                },
                "requester": {
                    "reference": "Practitioner/dr-gregorio-casas"
                },
                "authoredOn": "2022-04-01T10:12:14-03:00",
                "dosageInstruction": [
                    {
                        "text": "1 cápsula de 1mg diariamente, por 84 dias.",
                        "route": {
                            "coding": [
                                {
                                    "system": "http://snomed.info/sct",
                                    "code": "26643006",
                                    "display": "Oral route (qualifier value)"
                                }
                            ],
                            "text": "Via de administração oral"
                        }
                    }
                ]
            
            },
            "request": {
                "method": "PUT",
                "url": "MedicationRequest/e37a0d57-ae75-45c8-b042-fb42b5e6d733"
            }
        },
        {
            "resource": {
                "resourceType": "MedicationAdministration",
                "id": "2423c22d-2277-4187-a0d6-da62000af7c2",
                "status": "completed",
                "medicationCodeableConcept": {
                    "coding": [
                        {
                            "system": "http://snomed.info/sct",
                            "code": "372817009",
                            "display": "Doxorubicin (substance)"
                        }
                    ],
                    "text": "Doxorrubicina"
                },
                "subject": {
                    "reference": "Patient/bb5ae35f-d7e7-4a24-81e6-7bf62811d52d"
                },
                "effectiveDateTime": "2022-04-28T16:30:21-03:00",
                "performer": [
                    {
                        "actor": {
                            "reference": "Practitioner/dr-gregorio-casas"
                        }
                    }
                ],
                "note": [
                    {
                        "text": "doxorrubicina (60 mg/m² IV), 105,96 mg em 50 ml de solução salina normal a 0,9% administrada como infusão contínua. O paciente tolerou a infusão sem efeitos colaterais"
                    }
                ],
                "dosage": {
                    "text": "105,96 mg do medicamento foram administrados por via intravenosa",
                    "route": {
                        "coding": [
                            {
                                "system": "http://snomed.info/sct",
                                "code": "47625008",
                                "display": "Intravenous route (qualifier value)"
                            }
                        ],
                        "text": "administrados por via intravenosa"
                    },
                    "dose": {
                        "value": 105.96,
                        "unit": "mg"
                    }
                }
            
            },
            "request": {
                "method": "PUT",
                "url": "MedicationAdministration/2423c22d-2277-4187-a0d6-da62000af7c2"
            }
        }
    ]
}